File: Spectroscopy/XRD/sbn.dat
10	1
10.06	0
10.12	2
10.18	0
10.24	1
10.3	1
10.36	2
10.42	0
10.48	1
10.54	1
10.6	1
10.66	1
10.72	1
10.78	0
10.84	0
10.9	0
10.96	0
11.02	2
11.08	1
11.14	1
11.2	0
11.26	0
11.32	1
11.38	0
11.44	0
11.5	0
11.56	2
11.62	0
11.68	2
11.74	1
11.8	1
11.86	0
11.92	2
11.98	0
12.04	0
12.1	1
12.16	1
12.22	0
12.28	3
12.34	3
12.4	2
12.46	0
12.52	2
12.58	2
12.64	1
12.7	0
12.76	0
12.82	2
12.88	2
12.94	1
13	3
13.06	2
13.12	3
13.18	2
13.24	2
13.3	5
13.36	6
13.42	4
13.48	6
13.54	7
13.6	8
13.66	12
13.72	24
13.78	22
13.84	46
13.9	73
13.96	131
14.02	209
14.08	484
14.14	1799
14.2	3240
14.26	1413
14.32	319
14.38	134
14.44	69
14.5	23
14.56	34
14.62	24
14.68	9
14.74	9
14.8	14
14.86	3
14.92	2
14.98	6
15.04	4
15.1	4
15.16	5
15.22	3
15.28	4
15.34	1
15.4	1
15.46	1
15.52	3
15.58	0
15.64	0
15.7	1
15.76	1
15.82	0
15.88	0
15.94	0
16	1
16.06	0
16.12	0
16.18	1
16.24	0
16.3	2
16.36	1
16.42	1
16.48	0
16.54	2
16.6	0
16.66	1
16.72	1
16.78	2
16.84	0
16.9	1
16.96	1
17.02	0
17.08	0
17.14	0
17.2	0
17.26	2
17.32	0
17.38	0
17.44	0
17.5	0
17.56	1
17.62	1
17.68	0
17.74	2
17.8	0
17.86	1
17.92	0
17.98	0
18.04	1
18.1	1
18.16	0
18.22	1
18.28	0
18.34	1
18.4	1
18.46	1
18.52	0
18.58	1
18.64	0
18.7	0
18.76	0
18.82	0
18.88	0
18.94	0
19	1
19.06	0
19.12	1
19.18	2
19.24	1
19.3	1
19.36	0
19.42	0
19.48	0
19.54	0
19.6	1
19.66	0
19.72	0
19.78	0
19.84	0
19.9	1
19.96	1
20.02	0
20.08	0
20.14	0
20.2	0
20.26	0
20.32	2
20.38	0
20.44	1
20.5	1
20.56	3
20.62	0
20.68	2
20.74	0
20.8	0
20.86	4
20.92	1
20.98	3
21.04	6
21.1	14
21.16	56
21.22	117
21.28	93
21.34	52
21.4	18
21.46	12
21.52	6
21.58	10
21.64	2
21.7	3
21.76	5
21.82	3
21.88	9
21.94	4
22	5
22.06	3
22.12	6
22.18	3
22.24	2
22.3	4
22.36	4
22.42	2
22.48	1
22.54	3
22.6	2
22.66	2
22.72	1
22.78	3
22.84	6
22.9	3
22.96	0
23.02	3
23.08	4
23.14	0
23.2	1
23.26	3
23.32	2
23.38	1
23.44	0
23.5	2
23.56	0
23.62	1
23.68	1
23.74	2
23.8	1
23.86	0
23.92	2
23.98	2
24.04	0
24.1	2
24.16	1
24.22	3
24.28	0
24.34	0
24.4	1
24.46	1
24.52	1
24.58	1
24.64	0
24.7	1
24.76	1
24.82	1
24.88	0
24.94	1
25	0
25.06	0
25.12	1
25.18	0
25.24	1
25.3	0
25.36	0
25.42	1
25.48	2
25.54	0
25.6	0
25.66	0
25.72	1
25.78	0
25.84	2
25.9	0
25.96	0
26.02	0
26.08	0
26.14	0
26.2	2
26.26	1
26.32	0
26.38	0
26.44	0
26.5	0
26.56	0
26.62	1
26.68	0
26.74	0
26.8	0
26.86	2
26.92	1
26.98	2
27.04	2
27.1	3
27.16	4
27.22	3
27.28	0
27.34	6
27.4	1
27.46	1
27.52	3
27.58	5
27.64	2
27.7	7
27.76	7
27.82	14
27.88	16
27.94	15
28	15
28.06	23
28.12	30
28.18	72
28.24	125
28.3	242
28.36	399
28.42	538
28.48	565
28.54	646
28.6	535
28.66	418
28.72	241
28.78	126
28.84	96
28.9	52
28.96	38
29.02	34
29.08	26
29.14	17
29.2	16
29.26	19
29.32	25
29.38	13
29.44	15
29.5	17
29.56	7
29.62	14
29.68	9
29.74	13
29.8	8
29.86	9
29.92	11
29.98	10
30.04	9
30.1	12
30.16	4
30.22	8
30.28	10
30.34	9
30.4	7
30.46	4
30.52	12
30.58	3
30.64	9
30.7	4
30.76	7
30.82	2
30.88	10
30.94	7
31	1
31.06	6
31.12	9
31.18	3
31.24	8
31.3	6
31.36	6
31.42	9
31.48	5
31.54	7
31.6	10
31.66	13
31.72	10
31.78	8
31.84	7
31.9	7
31.96	3
32.02	8
32.08	7
32.14	7
32.2	13
32.26	17
32.32	16
32.38	9
32.44	12
32.5	15
32.56	17
32.62	16
32.68	12
32.74	17
32.8	19
32.86	18
32.92	28
32.98	42
33.04	28
33.1	26
33.16	34
33.22	26
33.28	14
33.34	13
33.4	21
33.46	15
33.52	17
33.58	16
33.64	13
33.7	19
33.76	17
33.82	20
33.88	13
33.94	19
34	15
34.06	21
34.12	18
34.18	36
34.24	24
34.3	29
34.36	30
34.42	27
34.48	27
34.54	24
34.6	32
34.66	35
34.72	27
34.78	44
34.84	54
34.9	54
34.96	69
35.02	71
35.08	81
35.14	79
35.2	88
35.26	122
35.32	169
35.38	210
35.44	314
35.5	445
35.56	682
35.62	1259
35.68	2562
35.74	5566
35.8	8171
35.86	7200
35.92	4982
35.98	2510
36.04	1374
36.1	862
36.16	582
36.22	408
36.28	326
36.34	248
36.4	211
36.46	140
36.52	141
36.58	106
36.64	78
36.7	87
36.76	56
36.82	35
36.88	31
36.94	42
37	13
37.06	21
37.12	19
37.18	13
37.24	13
37.3	16
37.36	10
37.42	11
37.48	9
37.54	4
37.6	3
37.66	8
37.72	4
37.78	6
37.84	5
37.9	4
37.96	4
38.02	4
38.08	6
38.14	2
38.2	2
38.26	1
38.32	2
38.38	0
38.44	1
38.5	3
38.56	2
38.62	4
38.68	3
38.74	1
38.8	1
38.86	3
38.92	5
38.98	2
39.04	2
39.1	1
39.16	0
39.22	3
39.28	2
39.34	0
39.4	2
39.46	1
39.52	1
39.58	2
39.64	0
39.7	0
39.76	0
39.82	0
39.88	1
39.94	2
40	0
40.06	1
40.12	1
40.18	1
40.24	0
40.3	1
40.36	0
40.42	2
40.48	0
40.54	2
40.6	1
40.66	1
40.72	0
40.78	2
40.84	1
40.9	1
40.96	2
41.02	2
41.08	1
41.14	2
41.2	2
41.26	3
41.32	2
41.38	2
41.44	5
41.5	4
41.56	2
41.62	1
41.68	1
41.74	2
41.8	1
41.86	4
41.92	2
41.98	3
42.04	9
42.1	17
42.16	30
42.22	49
42.28	83
42.34	88
42.4	125
42.46	154
42.52	156
42.58	230
42.64	348
42.7	784
42.76	956
42.82	1835
42.88	15772
42.94	22432
43	13723
43.06	10009
43.12	1484
43.18	563
43.24	394
43.3	253
43.36	212
43.42	139
43.48	84
43.54	99
43.6	60
43.66	57
43.72	30
43.78	36
43.84	29
43.9	21
43.96	11
44.02	11
44.08	8
44.14	9
44.2	9
44.26	3
44.32	7
44.38	6
44.44	4
44.5	5
44.56	6
44.62	8
44.68	7
44.74	4
44.8	3
44.86	3
44.92	2
44.98	5
45.04	2
45.1	2
45.16	5
45.22	4
45.28	1
45.34	1
45.4	1
45.46	1
45.52	2
45.58	2
45.64	0
45.7	1
45.76	0
45.82	3
45.88	1
45.94	2
46	0
46.06	5
46.12	1
46.18	1
46.24	0
46.3	1
46.36	2
46.42	1
46.48	2
46.54	2
46.6	1
46.66	1
46.72	3
46.78	0
46.84	1
46.9	1
46.96	1
47.02	2
47.08	6
47.14	3
47.2	4
47.26	1
47.32	2
47.38	2
47.44	1
47.5	3
47.56	0
47.62	1
47.68	2
47.74	1
47.8	2
47.86	0
47.92	0
47.98	3
48.04	1
48.1	2
48.16	2
48.22	2
48.28	0
48.34	4
48.4	1
48.46	0
48.52	1
48.58	3
48.64	0
48.7	1
48.76	2
48.82	4
48.88	2
48.94	1
49	2
49.06	3
49.12	1
49.18	2
49.24	0
49.3	2
49.36	1
49.42	2
49.48	6
49.54	3
49.6	3
49.66	3
49.72	3
49.78	4
49.84	5
49.9	5
49.96	5
50.02	6
50.08	7
50.14	9
50.2	7
50.26	3
50.32	9
50.38	21
50.44	19
50.5	40
50.56	37
50.62	67
50.68	77
50.74	133
50.8	167
50.86	212
50.92	320
50.98	311
51.04	331
51.1	270
51.16	219
51.22	177
51.28	133
51.34	73
51.4	61
51.46	36
51.52	31
51.58	23
51.64	25
51.7	22
51.76	17
51.82	13
51.88	13
51.94	6
52	7
52.06	9
52.12	5
52.18	8
52.24	2
52.3	9
52.36	5
52.42	6
52.48	2
52.54	2
52.6	2
52.66	2
52.72	1
52.78	3
52.84	1
52.9	2
52.96	1
53.02	1
53.08	2
53.14	1
53.2	0
53.26	0
53.32	0
53.38	0
53.44	1
53.5	0
53.56	1
53.62	2
53.68	1
53.74	0
53.8	1
53.86	1
53.92	1
53.98	0
54.04	0
54.1	0
54.16	2
54.22	1
54.28	0
54.34	0
54.4	1
54.46	0
54.52	0
54.58	0
54.64	0
54.7	0
54.76	0
54.82	0
54.88	1
54.94	0
55	1
55.06	0
55.12	1
55.18	1
55.24	0
55.3	0
55.36	0
55.42	0
55.48	0
55.54	0
55.6	0
55.66	0
55.72	1
55.78	0
55.84	1
55.9	0
55.96	1
56.02	1
56.08	0
56.14	0
56.2	0
56.26	0
56.32	0
56.38	0
56.44	2
56.5	0
56.56	0
56.62	0
56.68	0
56.74	0
56.8	0
56.86	1
56.92	0
56.98	0
57.04	0
57.1	0
57.16	0
57.22	0
57.28	0
57.34	0
57.4	1
57.46	1
57.52	0
57.58	1
57.64	0
57.7	0
57.76	0
57.82	0
57.88	0
57.94	1
58	0
58.06	0
58.12	0
58.18	0
58.24	1
58.3	0
58.36	0
58.42	2
58.48	1
58.54	1
58.6	1
58.66	4
58.72	3
58.78	9
58.84	8
58.9	8
58.96	9
59.02	8
59.08	6
59.14	2
59.2	4
59.26	5
59.32	5
59.38	2
59.44	1
59.5	4
59.56	2
59.62	4
59.68	2
59.74	0
59.8	3
59.86	0
59.92	0
59.98	0
60.04	0
60.1	1
60.16	0
60.22	0
60.28	0
60.34	0
60.4	0
60.46	2
60.52	0
60.58	0
60.64	0
60.7	0
60.76	0
60.82	0
60.88	0
60.94	0
61	1
61.06	0
61.12	0
61.18	1
61.24	0
61.3	1
61.36	1
61.42	0
61.48	0
61.54	0
61.6	0
61.66	0
61.72	0
61.78	0
61.84	1
61.9	1
61.96	0
62.02	0
62.08	0
62.14	0
62.2	1
62.26	0
62.32	1
62.38	1
62.44	0
62.5	0
62.56	1
62.62	0
62.68	0
62.74	2
62.8	0
62.86	0
62.92	0
62.98	1
63.04	0
63.1	0
63.16	0
63.22	1
63.28	1
63.34	1
63.4	0
63.46	0
63.52	0
63.58	0
63.64	0
63.7	0
63.76	0
63.82	0
63.88	4
63.94	0
64	0
64.06	1
64.12	1
64.18	0
64.24	0
64.3	0
64.36	0
64.42	0
64.48	0
64.54	1
64.6	0
64.66	1
64.72	0
64.78	0
64.84	0
64.9	0
64.96	1
65.02	0
65.08	1
65.14	2
65.2	0
65.26	1
65.32	0
65.38	1
65.44	0
65.5	1
65.56	1
65.62	2
65.68	2
65.74	1
65.8	2
65.86	1
65.92	0
65.98	2
66.04	2
66.1	3
66.16	5
66.22	2
66.28	3
66.34	3
66.4	3
66.46	5
66.52	11
66.58	6
66.64	6
66.7	11
66.76	16
66.82	31
66.88	42
66.94	55
67	64
67.06	68
67.12	67
67.18	91
67.24	70
67.3	65
67.36	64
67.42	66
67.48	49
67.54	37
67.6	28
67.66	24
67.72	27
67.78	20
67.84	17
67.9	17
67.96	18
68.02	8
68.08	7
68.14	9
68.2	10
68.26	12
68.32	12
68.38	5
68.44	7
68.5	3
68.56	9
68.62	5
68.68	4
68.74	1
68.8	6
68.86	5
68.92	7
68.98	3
69.04	1
69.1	5
69.16	6
69.22	5
69.28	6
69.34	1
69.4	1
69.46	1
69.52	3
69.58	2
69.64	2
69.7	5
69.76	4
69.82	2
69.88	7
69.94	1
70	3